File: LDPE-1 processed.csv
wavenumber,intensity
599.76,0
602.171,0
604.582,0
606.992,0
609.403,0
611.813,0
614.224,0
616.635,0
619.045,0
621.456,0
623.867,0
626.277,0
628.688,0
631.098,0
633.509,0
635.92,0
638.33,0
640.741,0
643.151,0
645.562,0
647.973,0
650.383,0
652.794,0
655.204,0
657.615,0
660.026,0
662.436,0
664.847,0
667.258,0
669.668,0
672.079,0
674.489,0
676.9,0
679.311,0
681.721,0
684.132,0
686.542,0
688.953,0
691.364,0
693.774,0
696.185,0.009099624
698.596,0.00927302
701.006,0.0109229
703.417,0.0134239
705.827,0.0166599
708.238,0.0236981
710.649,0.0328477
713.059,0.0464828
715.47,0.0762251
717.88,0.117887
720.291,0.109495
722.702,0.06290282
725.112,0.0501409
727.523,0.0597659
729.933,0.0756278
732.344,0.0368531
734.755,0.010952
737.165,0.007599691
739.576,0
741.987,0
744.397,0
746.808,0
749.218,0
751.629,0
754.04,0
756.45,0
758.861,0
761.271,0
763.682,0
766.093,0
768.503,0
770.914,0
773.325,0
775.735,0
778.146,0
780.556,0
782.967,0
785.378,0
787.788,0
790.199,0
792.609,0
795.02,0
797.431,0
799.841,0
802.252,0
804.662,0
807.073,0
809.484,0
811.894,0
814.305,0
816.716,0
819.126,0
821.537,0
823.947,0
826.358,0
828.769,0
831.179,0
833.59,0
836,0
838.411,0
840.822,0
843.232,0
845.643,0
848.053,0
850.464,0
852.875,0
855.285,0
857.696,0
860.107,0
862.517,0
864.928,0
867.338,0
869.749,0
872.16,0
874.57,0
876.981,0
879.391,0
881.802,0
884.213,0
886.623,0
889.034,0
891.445,0
893.855,0
896.266,0
898.676,0
901.087,0
903.498,0
905.908,0
908.319,0
910.729,0
913.14,0
915.551,0
917.961,0
920.372,0
922.782,0
925.193,0
927.604,0
930.014,0
932.425,0
934.836,0
937.246,0
939.657,0
942.067,0
944.478,0
946.889,0
949.299,0
951.71,0
954.12,0
956.531,0
958.942,0
961.352,0
963.763,0
966.174,0
968.584,0
970.995,0
973.405,0
975.816,0
978.227,0
980.637,0
983.048,0
985.458,0
987.869,0
990.28,0
992.69,0
995.101,0
997.511,0
999.922,0
1002.33,0
1004.74,0
1007.15,0
1009.56,0
1011.98,0
1014.39,0
1016.8,0
1019.21,0
1021.62,0
1024.03,0
1026.44,0
1028.85,0
1031.26,0
1033.67,0
1036.08,0
1038.49,0
1040.9,0
1043.31,0
1045.72,0
1048.13,0
1050.54,0
1052.96,0
1055.37,0
1057.78,0
1060.19,0
1062.6,0
1065.01,0
1067.42,0
1069.83,0
1072.24,0
1074.65,0
1077.06,0
1079.47,0
1081.88,0
1084.29,0
1086.7,0
1089.11,0
1091.53,0
1093.94,0
1096.35,0
1098.76,0
1101.17,0
1103.58,0
1105.99,0
1108.4,0
1110.81,0
1113.22,0
1115.63,0
1118.04,0
1120.45,0
1122.86,0
1125.27,0
1127.68,0
1130.1,0
1132.51,0
1134.92,0
1137.33,0
1139.74,0
1142.15,0
1144.56,0
1146.97,0
1149.38,0
1151.79,0
1154.2,0
1156.61,0
1159.02,0
1161.43,0
1163.84,0
1166.25,0
1168.66,0
1171.08,0
1173.49,0
1175.9,0
1178.31,0
1180.72,0
1183.13,0
1185.54,0
1187.95,0
1190.36,0
1192.77,0
1195.18,0
1197.59,0
1200,0
1202.41,0
1204.82,0
1207.23,0
1209.65,0
1212.06,0
1214.47,0
1216.88,0
1219.29,0
1221.7,0
1224.11,0
1226.52,0
1228.93,0
1231.34,0
1233.75,0
1236.16,0
1238.57,0
1240.98,0
1243.39,0
1245.8,0
1248.22,0
1250.63,0
1253.04,0
1255.45,0
1257.86,0
1260.27,0
1262.68,0
1265.09,0
1267.5,0
1269.91,0
1272.32,0
1274.73,0
1277.14,0
1279.55,0
1281.96,0
1284.37,0
1286.78,0
1289.2,0
1291.61,0
1294.02,0
1296.43,0
1298.84,0
1301.25,0
1303.66,0
1306.07,0
1308.48,0
1310.89,0
1313.3,0
1315.71,0
1318.12,0
1320.53,0
1322.94,0
1325.35,0
1327.77,0
1330.18,0
1332.59,0
1335,0
1337.41,0
1339.82,0
1342.23,0.007363219
1344.64,0.008351232
1347.05,0.008486265
1349.46,0.009525858
1351.87,0.0100052
1354.28,0.009177614
1356.69,0.009543423
1359.1,0.009630769
1361.51,0.008054517
1363.92,0.0102392
1366.34,0.0132187
1368.75,0.0130642
1371.16,0.0137269
1373.57,0.0107568
1375.98,0.0154375
1378.39,0.0158975
1380.8,0.0117518
1383.21,0.008216024
1385.62,0
1388.03,0
1390.44,0
1392.85,0
1395.26,0
1397.67,0
1400.08,0
1402.49,0
1404.9,0
1407.32,0.007376342
1409.73,0
1412.14,0
1414.55,0.007785859
1416.96,0
1419.37,0
1421.78,0.009428299
1424.19,0.008620363
1426.6,0.0135317
1429.01,0.0136357
1431.42,0.0186172
1433.83,0.0219159
1436.24,0.0120984
1438.65,0.0252932
1441.06,0.0309085
1443.47,0.0340771
1445.89,0.0368903
1448.3,0.0374136
1450.71,0.050237
1453.12,0.0641342
1455.53,0.0623932
1457.94,0.0692289
1460.35,0.134274
1462.76,0.190186
1465.17,0.146113
1467.58,0.146661
1469.99,0.148523
1472.4,0.171709
1474.81,0.0883568
1477.22,0.0229615
1479.63,0.0164334
1482.04,0.0100875
1484.46,0.0101041
1486.87,0
1489.28,0
1491.69,0
1494.1,0
1496.51,0
1498.92,0
1501.33,0
1503.74,0
1506.15,0
1508.56,0
1510.97,0
1513.38,0
1515.79,0
1518.2,0
1520.61,0
1523.03,0
1525.44,0
1527.85,0
1530.26,0
1532.67,0
1535.08,0
1537.49,0
1539.9,0
1542.31,0
1544.72,0
1547.13,0
1549.54,0
1551.95,0
1554.36,0
1556.77,0
1559.18,0
1561.59,0
1564.01,0
1566.42,0
1568.83,0
1571.24,0
1573.65,0
1576.06,0
1578.47,0
1580.88,0
1583.29,0
1585.7,0
1588.11,0
1590.52,0
1592.93,0
1595.34,0
1597.754,0
1600.16,0
1602.58,0
1604.99,0
1607.4,0
1609.81,0
1612.22,0
1614.63,0
1617.04,0
1619.45,0.007833307
1621.86,0
1624.27,0
1626.68,0
1629.09,0
1631.5,0.008104083
1633.91,0
1636.32,0
1638.73,0
1641.15,0.008678085
1643.56,0.008965221
1645.97,0
1648.38,0
1650.79,0
1653.2,0
1655.61,0
1658.02,0.008878088
1660.43,0.008222157
1662.84,0
1665.25,0.00806348
1667.66,0
1670.07,0
1672.48,0
1674.89,0
1677.3,0
1679.71,0
1682.13,0
1684.54,0
1686.95,0
1689.36,0
1691.77,0
1694.18,0
1696.59,0
1699,0
1701.41,0
1703.82,0
1706.23,0
1708.64,0
1711.05,0
1713.46,0
1715.87,0
1718.28,0
1720.7,0
1723.11,0
1725.52,0
1727.93,0
1730.34,0
1732.75,0
1735.16,0
1737.57,0.007184166
1739.98,0
1742.39,0
1744.8,0
1747.21,0
1749.62,0
1752.03,0
1754.44,0
1756.85,0
1759.27,0
1761.68,0
1764.09,0
1766.5,0
1768.91,0
1771.32,0
1773.73,0
1776.14,0
1778.55,0
1780.96,0
1783.37,0
1785.78,0
1788.19,0
1790.6,0
1793.01,0
1795.42,0
1797.83,0
1800.25,0
1802.66,0
1805.07,0
1807.48,0
1809.89,0
1812.3,0
1814.71,0
1817.12,0
1819.53,0
1821.94,0
1824.35,0
1826.76,0
1829.17,0
1831.58,0
1833.99,0
1836.4,0
1838.82,0
1841.23,0
1843.64,0
1846.05,0
1848.46,0
1850.87,0
1853.28,0
1855.69,0
1858.1,0
1860.51,0
1862.92,0
1865.33,0
1867.74,0
1870.15,0
1872.56,0
1874.97,0
1877.39,0
1879.8,0
1882.21,0
1884.62,0
1887.03,0
1889.44,0
1891.85,0
1894.26,0
1896.67,0
1899.08,0
1901.49,0
1903.9,0
1906.31,0
1908.72,0
1911.13,0
1913.54,0
1915.95,0
1918.37,0
1920.78,0
1923.19,0
1925.6,0
1928.01,0
1930.42,0
1932.83,0
1935.24,0
1937.65,0
1940.06,0.008428585
1942.47,0
1944.88,0
1947.29,0
1949.7,0.007302185
1952.11,0.007878628
1954.52,0
1956.94,0
1959.35,0
1961.76,0
1964.17,0.007268541
1966.58,0
1968.99,0
1971.4,0.007961141
1973.81,0.007579617
1976.22,0
1978.63,0
1981.04,0
1983.45,0
1985.86,0
1988.27,0
1990.68,0
1993.09,0
1995.51,0
1997.92,0
2000.33,0
2002.74,0
2005.15,0
2007.56,0
2009.97,0
2012.38,0
2014.79,0
2017.2,0
2019.61,0
2022.02,0.007185441
2024.43,0
2026.84,0
2029.25,0
2031.66,0.0110384
2034.07,0
2036.49,0
2038.9,0.007589293
2041.31,0
2043.72,0.007827149
2046.13,0
2048.54,0
2050.95,0
2053.36,0
2055.77,0
2058.18,0
2060.59,0
2063,0
2065.41,0
2067.82,0
2070.23,0
2072.64,0
2075.06,0
2077.47,0
2079.88,0
2082.29,0
2084.7,0
2087.11,0
2089.52,0
2091.93,0
2094.34,0
2096.75,0
2099.16,0
2101.57,0
2103.98,0
2106.39,0
2108.8,0
2111.21,0
2113.63,0
2116.04,0
2118.45,0
2120.86,0
2123.27,0
2125.68,0
2128.09,0
2130.5,0
2132.91,0
2135.32,0
2137.73,0
2140.14,0
2142.55,0
2144.96,0
2147.37,0
2149.78,0
2152.19,0
2154.61,0
2157.02,0
2159.43,0
2161.84,0
2164.25,0
2166.66,0
2169.07,0
2171.48,0
2173.89,0
2176.3,0
2178.71,0
2181.12,0
2183.53,0
2185.94,0
2188.35,0
2190.76,0
2193.18,0
2195.59,0
2198,0
2200.41,0
2202.82,0
2205.23,0
2207.64,0
2210.05,0
2212.46,0
2214.87,0
2217.28,0
2219.69,0
2222.1,0
2224.51,0
2226.92,0
2229.33,0
2231.75,0
2234.16,0
2236.57,0
2238.98,0
2241.39,0
2243.8,0
2246.21,0
2248.62,0
2251.03,0
2253.44,0
2255.85,0
2258.26,0
2260.67,0
2263.08,0
2265.49,0
2267.9,0
2270.31,0
2272.73,0
2275.14,0
2277.55,0
2279.96,0
2282.37,0
2284.78,0
2287.19,0
2289.6,0
2292.01,0
2294.42,0
2296.83,0
2299.24,0
2301.65,0
2304.06,0
2306.47,0
2308.88,0
2311.3,0
2313.71,0
2316.12,0
2318.53,0
2320.94,0
2323.35,0
2325.76,0
2328.17,0
2330.58,0
2332.99,0
2335.4,0
2337.81,0
2340.22,0
2342.63,0
2345.04,0
2347.45,0
2349.87,0
2352.28,0
2354.69,0
2357.1,0
2359.51,0
2361.92,0
2364.33,0
2366.74,0
2369.15,0
2371.56,0
2373.97,0
2376.38,0
2378.79,0
2381.2,0
2383.61,0
2386.02,0
2388.43,0
2390.85,0
2393.26,0
2395.67,0
2398.08,0
2400.49,0
2402.9,0
2405.31,0
2407.72,0
2410.13,0
2412.54,0
2414.95,0
2417.36,0
2419.77,0
2422.18,0
2424.59,0
2427,0
2429.42,0
2431.83,0
2434.24,0
2436.65,0
2439.06,0
2441.47,0
2443.88,0
2446.29,0
2448.7,0
2451.11,0
2453.52,0
2455.93,0
2458.34,0
2460.75,0
2463.16,0
2465.57,0
2467.99,0
2470.4,0
2472.81,0
2475.22,0
2477.63,0
2480.04,0
2482.45,0
2484.86,0
2487.27,0
2489.68,0
2492.09,0
2494.5,0
2496.91,0
2499.32,0
2501.73,0
2504.14,0
2506.55,0
2508.97,0
2511.38,0
2513.79,0
2516.2,0
2518.61,0
2521.02,0
2523.43,0
2525.84,0
2528.25,0
2530.66,0
2533.07,0
2535.48,0
2537.89,0
2540.3,0
2542.71,0
2545.12,0
2547.54,0
2549.95,0
2552.36,0
2554.77,0
2557.18,0
2559.59,0
2562,0
2564.41,0
2566.82,0
2569.23,0
2571.64,0
2574.05,0
2576.46,0
2578.87,0
2581.28,0
2583.69,0
2586.11,0
2588.52,0
2590.93,0
2593.34,0
2595.75,0
2598.16,0
2600.57,0
2602.98,0
2605.39,0
2607.8,0
2610.21,0
2612.62,0
2615.03,0
2617.44,0
2619.85,0
2622.26,0
2624.67,0.0078283
2627.09,0.008053656
2629.5,0.007959037
2631.91,0.007777893
2634.32,0.007693507
2636.73,0.008158844
2639.14,0.007894545
2641.55,0.008073787
2643.96,0.007785954
2646.37,0.007697437
2648.78,0.007887461
2651.19,0.007869446
2653.6,0.008022329
2656.01,0.008262471
2658.42,0.00788658
2660.83,0.00860204
2663.24,0.008214406
2665.66,0.008358116
2668.07,0.007895314
2670.48,0.007606173
2672.89,0.007315464
2675.3,0.007874285
2677.71,0.007412772
2680.12,0.007451314
2682.53,0.007378783
2684.94,0.008011047
2687.35,0.007567168
2689.76,0.007234189
2692.17,0.007380164
2694.58,0.007379421
2696.99,0.007452052
2699.4,0
2701.81,0.007620113
2704.23,0.007413006
2706.64,0.008215895
2709.05,0.0080514
2711.457,0.008326973
2713.87,0.008362338
2716.28,0.008699672
2718.69,0.008230278
2721.1,0.00955678
2723.51,0.009801893
2725.92,0.0104782
2728.33,0.0113861
2730.74,0.0118234
2733.15,0.0117306
2735.56,0.0132919
2737.97,0.0131149
2740.38,0.01278482
2742.79,0.0136817
2745.21,0.009528205
2747.62,0.0103678
2750.03,0.010411
2752.44,0.0102811
2754.85,0.01057809
2757.26,0.0126486
2759.67,0.0126272
2762.08,0.0134498
2764.49,0.015737
2766.9,0.0170691
2769.31,0.0177287
2771.72,0.0193831
2774.13,0.02250978
2776.54,0.0231739
2778.95,0.0249742
2781.36,0.028282
2783.78,0.0313007
2786.19,0.0338397
2788.6,0.036709
2791.01,0.04048355
2793.42,0.0439553
2795.83,0.0472776
2798.24,0.0521212
2800.65,0.0556604
2803.06,0.06095956
2805.47,0.0660617
2807.88,0.0720745
2810.29,0.0772783
2812.7,0.0838537
2815.11,0.091872
2817.52,0.102906
2819.93,0.112578
2822.35,0.124557
2824.76,0.141386
2827.17,0.159883
2829.58,0.184387
2831.99,0.213799
2834.4,0.256038
2836.81,0.314718
2839.22,0.400436
2841.63,0.52609
2844.04,0.696468
2846.45,0.866278
2848.86,0.879918
2851.27,0.712048
2853.68,0.522315
2856.09,0.381664
2858.5,0.290936
2860.91,0.231271
2863.33,0.195282
2865.74,0.173959
2868.15,0.169192
2870.56,0.1743104
2872.97,0.18225
2875.38,0.197827
2877.79,0.219712
2880.2,0.247328
2882.61,0.277877
2885.02,0.31107
2887.43,0.344537
2889.84,0.380269
2892.25,0.412165
2894.66,0.444931
2897.07,0.475892
2899.48,0.507765
2901.9,0.546393
2904.31,0.594613
2906.72,0.663787
2909.13,0.758609
2911.54,0.880146
2913.95,0.986809
2916.36,0.977422
2918.77,0.861959
2921.18,0.724037
2923.59,0.59703
2926,0.492833
2928.41,0.409607
2930.82,0.338962
2933.23,0.278502
2935.64,0.229358
2938.05,0.187192
2940.47,0.150774
2942.88,0.123429
2945.29,0.101861
2947.7,0.0890672
2950.11,0.0828845
2952.52,0.0807709
2954.93,0.07779
2957.34,0.0738067
2959.75,0.0688258
2962.16,0.059063
2964.57,0.0507049
2966.98,0.0421966
2969.39,0.0334447
2971.8,0.0262623
2974.21,0.01949726
2976.62,0.0139022
2979.03,0.009882346
2981.45,0.0123151
2983.86,0.009139527
2986.27,0.008512677
2988.68,0
2991.09,0
2993.5,0
2995.91,0
2998.32,0
3000.73,0
3003.14,0
3005.55,0
3007.96,0
3010.37,0
3012.78,0
3015.19,0
3017.6,0
3020.02,0
3022.43,0
3024.84,0
3027.25,0
3029.66,0
3032.07,0
3034.48,0
3036.89,0
3039.3,0
3041.71,0
3044.12,0
3046.53,0
3048.94,0
3051.35,0
3053.76,0
3056.17,0
3058.59,0
3061,0
3063.41,0
3065.82,0
3068.23,0
3070.64,0
3073.05,0
3075.46,0
3077.87,0
3080.28,0
3082.69,0
3085.1,0
3087.51,0
3089.92,0
3092.33,0
3094.74,0
3097.16,0
3099.57,0
3101.98,0
3104.39,0
3106.8,0
3109.21,0
3111.62,0
3114.03,0
3116.44,0
3118.85,0
3121.26,0
3123.67,0
3126.08,0
3128.49,0
3130.9,0
3133.31,0
3135.72,0
3138.14,0
3140.55,0
3142.96,0
3145.37,0
3147.78,0
3150.19,0
3152.6,0
3155.01,0
3157.42,0
3159.83,0
3162.24,0
3164.65,0
3167.06,0
3169.47,0
3171.88,0
3174.29,0
3176.71,0
3179.12,0
3181.53,0
3183.94,0
3186.35,0
3188.76,0
3191.17,0
3193.58,0
3195.99,0
3198.4,0
3200.81,0
3203.22,0
3205.63,0
3208.04,0
3210.45,0
3212.86,0
3215.28,0
3217.69,0
3220.1,0
3222.51,0
3224.92,0
3227.33,0
3229.74,0
3232.15,0
3234.56,0
3236.97,0
3239.38,0
3241.79,0
3244.2,0
3246.61,0
3249.02,0
3251.43,0
3253.84,0
3256.26,0
3258.67,0
3261.08,0
3263.49,0
3265.9,0
3268.31,0
3270.72,0
3273.13,0
3275.54,0
3277.95,0
3280.36,0
3282.77,0
3285.18,0
3287.59,0
3290,0
3292.41,0
3294.83,0
3297.24,0
3299.65,0
3302.06,0
3304.47,0
3306.88,0
3309.29,0
3311.7,0
3314.11,0
3316.52,0
3318.93,0
3321.34,0
3323.75,0
3326.16,0
3328.57,0
3330.98,0
3333.4,0
3335.81,0
3338.22,0
3340.63,0
3343.04,0
3345.45,0
3347.86,0
3350.27,0
3352.68,0
3355.09,0
3357.5,0
3359.91,0
3362.32,0
3364.73,0
3367.14,0
3369.55,0
3371.96,0
3374.38,0
3376.79,0
3379.2,0
3381.61,0
3384.02,0
3386.43,0
3388.84,0
3391.25,0
3393.66,0
3396.07,0
3398.48,0
3400.89,0
3403.3,0
3405.71,0
3408.12,0
3410.53,0
3412.95,0
3415.36,0
3417.77,0
3420.18,0
3422.59,0
3425,0
3427.41,0
3429.82,0
3432.23,0
3434.64,0
3437.05,0
3439.46,0.007830578
3441.87,0.007340513
3444.28,0.007053079
3446.69,0
3449.1,0.007684816
3451.52,0.007581339
3453.93,0.008085553
3456.34,0.007466123
3458.75,0
3461.16,0
3463.57,0.007389075
3465.98,0
3468.39,0.00800463
3470.8,0.008925013
3473.21,0.007383525
3475.62,0.007026733
3478.03,0.008327832
3480.44,0.007149379
3482.85,0
3485.26,0.009300072
3487.67,0.008734225
3490.08,0.008308511
3492.5,0.008467681
3494.91,0.007315236
3497.32,0
3499.73,0.008874581
3502.14,0
3504.55,0.00806485
3506.96,0.007231438
3509.37,0
3511.78,0.008816351
3514.19,0.008873074
3516.6,0.008866375
3519.01,0.009613943
3521.42,0.00945761
3523.83,0
3526.24,0
3528.65,0.007085002
3531.07,0.008055609
3533.48,0.00931027
3535.89,0.008698529
3538.3,0.009667074
3540.71,0.008116478
3543.12,0.008951915
3545.53,0
3547.94,0.008285445
3550.35,0.009095852
3552.76,0.009038645
3555.17,0.010422
3557.58,0.0102997
3559.99,0.008640276
3562.4,0.009546094
3564.81,0
3567.22,0
3569.64,0.008261257
3572.05,0.01070289
3574.46,0.0107749
3576.87,0.0115364
3579.28,0.0110619
3581.69,0.0100032
3584.1,0.0104053
3586.51,0
3588.92,0
3591.33,0.0110131
3593.74,0.00761616
3596.15,0.008306123
3598.56,0.0116979
3600.97,0.0104361
3603.38,0.0119979
3605.79,0.0106008
3608.2,0
3610.62,0
3613.03,0
3615.44,0.009946301
3617.85,0
3620.26,0
3622.67,0.0144065
3625.08,0.0124062
3627.49,0
3629.9,0
3632.31,0.0126107
3634.72,0.009628999
3637.13,0.0110506
3639.54,0.0142807
3641.95,0.0128493
3644.36,0.0202256
3646.77,0
3649.19,0
3651.6,0
3654.01,0.0205867
3656.42,0
3658.83,0.0224141
3661.24,0.0210836
3663.65,0.022341
3666.06,0.024391
3668.47,0
3670.88,0
3673.29,0.009230636
3675.7,0
3678.11,0.01142668
3680.52,0.0186096
3682.93,0.02306694
3685.34,0.0237904
3687.76,0
3690.17,0
3692.58,0.009497761
3694.99,0.0231437
3697.4,0.0233982
3699.81,0.0200353
3702.22,0.007444736
3704.63,0.0257657
3707.04,0.02388788
3709.45,0
3711.86,0
3714.27,0.0193342
3716.68,0.0213908
3719.09,0.0174438
3721.5,0.009592567
3723.91,0.0122404
3726.32,0.008532648
3728.74,0.0218588
3731.15,0
3733.56,0
3735.97,0
3738.38,0.007564771
3740.79,0.0140936
3743.2,0
3745.61,0
3748.02,0
3750.43,0
3752.84,0
3755.25,0.0185279
3757.66,0.011323
3760.07,0.007864738
3762.48,0.0255737
3764.89,0.009150335
3767.31,0.0206071
3769.72,0
3772.13,0.02561275
3774.54,0.0262093
3776.95,0.0236245
3779.36,0.008381763
3781.77,0.0238511
3784.18,0.0188676
3786.59,0.0228947
3789,0.0246911
3791.41,0.0246871
3793.82,0.0256294
3796.23,0.008861857
3798.64,0.0238
3801.05,0
3803.46,0.01127278
3805.88,0
3808.29,0
3810.7,0.0254209
3813.11,0.0287205
3815.52,0
3817.93,0.0112415
3820.34,0
3822.75,0
3825.16,0.01955999
3827.57,0.012881
3829.98,0.0150407
3832.39,0.009052874
3834.8,0.009261286
3837.21,0
3839.62,0
3842.03,0.007917586
3844.44,0.008030371
3846.86,0.0224834
3849.27,0.0233994
3851.68,0
3854.09,0
3856.5,0.01239679
3858.91,0.0203089
3861.32,0.008713057
3863.73,0
3866.14,0.007733889
3868.55,0
3870.96,0
3873.37,0.009434859
3875.78,0.0134691
3878.19,0.0183856
3880.6,0
3883.01,0.020451
3885.43,0
3887.84,0.0200147
3890.25,0
3892.66,0.007844274
3895.07,0.0193897
3897.48,0.008981546
3899.89,0
3902.3,0
3904.71,0
3907.12,0.0185363
3909.53,0.0197559
3911.94,0.0189213
3914.35,0.0203541
3916.76,0
3919.17,0.008150311
3921.58,0.008888264
3924,0.009182374
3926.41,0.0117809
3928.82,0.0109263
3931.23,0
3933.64,0.008308903
3936.05,0.009672439
3938.46,0.0102656
3940.87,0.008569526
3943.28,0
3945.69,0.007894906
3948.1,0
3950.51,0.007270591
3952.92,0.007669804
3955.33,0.00742263
3957.74,0.007771189
3960.15,0
3962.56,0
3964.98,0
3967.39,0
3969.8,0
3972.21,0
3974.62,0
3977.03,0
3979.44,0
3981.85,0
3984.26,0
3986.67,0
3989.08,0
3991.49,0
3993.9,0
3996.31,0
3998.72,0
4000.17,0