File: PET-1 processed.csv
wavenumber,intensity
599.76,0
602.171,0
604.582,0
606.992,0
609.403,0
611.813,0
614.224,0
616.635,0
619.045,0
621.456,0
623.867,0
626.277,0
628.688,0
631.098,0
633.509,0
635.92,0
638.33,0
640.741,0
643.151,0
645.562,0
647.973,0
650.383,0
652.794,0
655.204,0
657.615,0
660.026,0.048936
662.436,0.0490919
664.847,0
667.258,0
669.668,0.0540339
672.079,0.0601712
674.489,0.0625344
676.9,0.0580405
679.311,0.0607836
681.721,0.0615277
684.132,0.07149999
686.542,0.0798068
688.953,0.0823892
691.364,0.0753255
693.774,0.0849906
696.185,0.0944603
698.596,0.09911548
701.006,0.114498
703.417,0.128481
705.827,0.137693
708.238,0.155915
710.649,0.169413
713.059,0.192161
715.47,0.211403
717.88,0.242533
720.291,0.273183
722.702,0.259228
725.112,0.215464
727.523,0.183339
729.933,0.142599
732.344,0.0985261
734.755,0.0632413
737.165,0
739.576,0
741.987,0
744.397,0
746.808,0
749.218,0
751.629,0
754.04,0
756.45,0
758.861,0
761.271,0
763.682,0
766.093,0
768.503,0
770.914,0
773.325,0
775.735,0
778.146,0
780.556,0
782.967,0
785.378,0
787.788,0
790.199,0
792.609,0
795.02,0
797.431,0
799.841,0
802.252,0
804.662,0
807.073,0
809.484,0
811.894,0
814.305,0
816.716,0
819.126,0
821.537,0
823.947,0
826.358,0
828.769,0
831.179,0
833.59,0
836,0
838.411,0
840.822,0
843.232,0
845.643,0
848.053,0
850.464,0
852.875,0
855.285,0
857.696,0
860.107,0
862.517,0
864.928,0
867.338,0
869.749,0.0780189
872.16,0.0798067
874.57,0
876.981,0
879.391,0
881.802,0
884.213,0
886.623,0
889.034,0
891.445,0
893.855,0
896.266,0
898.676,0
901.087,0
903.498,0
905.908,0
908.319,0
910.729,0
913.14,0
915.551,0
917.961,0
920.372,0
922.782,0
925.193,0
927.604,0
930.014,0
932.425,0
934.836,0
937.246,0
939.657,0
942.067,0
944.478,0
946.889,0
949.299,0
951.71,0
954.12,0
956.531,0
958.942,0
961.352,0
963.763,0
966.174,0
968.584,0
970.995,0
973.405,0
975.816,0
978.227,0
980.637,0
983.048,0
985.458,0
987.869,0
990.28,0
992.69,0
995.101,0
997.511,0
999.922,0
1002.33,0
1004.74,0
1007.15,0
1009.56,0.0587345
1011.98,0.0753814
1014.39,0.111233
1016.8,0.130241
1019.21,0.123768
1021.62,0.111956
1024.03,0.0904104
1026.44,0
1028.85,0
1031.26,0
1033.67,0
1036.08,0
1038.49,0
1040.9,0.0504706
1043.31,0.05259218
1045.72,0.04979413
1048.13,0.0545535
1050.54,0.0480339
1052.96,0.0479542
1055.37,0.0488345
1057.78,0.0516829
1060.19,0.0575704
1062.6,0.06629879
1065.01,0.0752006
1067.42,0.0740275
1069.83,0.0923627
1072.24,0.108979
1074.65,0.12368
1077.06,0.146982
1079.47,0.165236
1081.88,0.178881
1084.29,0.19189
1086.7,0.207619
1089.11,0.215833
1091.53,0.226496
1093.94,0.228557
1096.35,0.226523
1098.76,0.221092
1101.17,0.212219
1103.58,0.202435
1105.99,0.195839
1108.4,0.192054
1110.81,0.187728
1113.22,0.185929
1115.63,0.180889
1118.04,0.189959
1120.45,0.185464
1122.86,0.178208
1125.27,0.170926
1127.68,0.152443
1130.1,0.127944
1132.51,0.107833
1134.92,0.07353002
1137.33,0.0613162
1139.74,0
1142.15,0
1144.56,0
1146.97,0
1149.38,0
1151.79,0
1154.2,0
1156.61,0
1159.02,0
1161.43,0
1163.84,0
1166.25,0
1168.66,0
1171.08,0
1173.49,0
1175.9,0
1178.31,0
1180.72,0
1183.13,0
1185.54,0
1187.95,0
1190.36,0
1192.77,0.0484414
1195.18,0.0606861
1197.59,0.0660915
1200,0.0764159
1202.41,0.07327795
1204.82,0.0882964
1207.23,0.10625
1209.65,0.121868
1212.06,0.13915
1214.47,0.162068
1216.88,0.185404
1219.29,0.20442
1221.7,0.227215
1224.11,0.248207
1226.52,0.264188
1228.93,0.281105
1231.34,0.3023
1233.75,0.320447
1236.16,0.332772
1238.57,0.342918
1240.98,0.34504
1243.39,0.341627
1245.8,0.334742
1248.22,0.325785
1250.63,0.313292
1253.04,0.303621
1255.45,0.296196
1257.86,0.28725
1260.27,0.271983
1262.68,0.262784
1265.09,0.244528
1267.5,0.229636
1269.91,0.209194
1272.32,0.191482
1274.73,0.174549
1277.14,0.15981
1279.55,0.142339
1281.96,0.124126
1284.37,0.105111
1286.78,0.0866013
1289.2,0.0892939
1291.61,0.0726585
1294.02,0.0608287
1296.43,0.05439911
1298.84,0
1301.25,0
1303.66,0
1306.07,0
1308.48,0
1310.89,0
1313.3,0
1315.71,0
1318.12,0
1320.53,0
1322.94,0
1325.35,0
1327.77,0
1330.18,0
1332.59,0
1335,0.0648227
1337.41,0.0884783
1339.82,0.114832
1342.23,0.123719
1344.64,0.0730562
1347.05,0.0542735
1349.46,0
1351.87,0
1354.28,0
1356.69,0
1359.1,0
1361.51,0
1363.92,0
1366.34,0
1368.75,0
1371.16,0
1373.57,0
1375.98,0
1378.39,0
1380.8,0
1383.21,0
1385.62,0
1388.03,0
1390.44,0
1392.85,0
1395.26,0
1397.67,0
1400.08,0
1402.49,0.0784863
1404.9,0.0876618
1407.32,0.123787
1409.73,0.127851
1412.14,0.098392
1414.55,0.0784001
1416.96,0
1419.37,0
1421.78,0
1424.19,0
1426.6,0
1429.01,0
1431.42,0
1433.83,0.0526291
1436.24,0
1438.65,0
1441.06,0.0577553
1443.47,0.0638353
1445.89,0.0643202
1448.3,0.0507569
1450.71,0.0808396
1453.12,0.0860217
1455.53,0
1457.94,0
1460.35,0.0855598
1462.76,0.0968826
1465.17,0.0512607
1467.58,0.110086
1469.99,0.0811604
1472.4,0
1474.81,0
1477.22,0
1479.63,0
1482.04,0
1484.46,0
1486.87,0
1489.28,0
1491.69,0
1494.1,0
1496.51,0
1498.92,0
1501.33,0
1503.74,0
1506.15,0
1508.56,0
1510.97,0
1513.38,0
1515.79,0
1518.2,0
1520.61,0
1523.03,0
1525.44,0
1527.85,0
1530.26,0
1532.67,0
1535.08,0
1537.49,0
1539.9,0
1542.31,0
1544.72,0
1547.13,0
1549.54,0
1551.95,0
1554.36,0
1556.77,0
1559.18,0
1561.59,0
1564.01,0
1566.42,0.0485932
1568.83,0
1571.24,0
1573.65,0.06792605
1576.06,0
1578.47,0.0735274
1580.88,0.0718786
1583.29,0.06246
1585.7,0.0603093
1588.11,0.0578409
1590.52,0.0682703
1592.93,0.05997111
1595.34,0.0584571
1597.754,0.0688446
1600.16,0.0743245
1602.58,0.0762828
1604.99,0.0852146
1607.4,0.0875186
1609.81,0.0943732
1612.22,0.0848225
1614.63,0.0808166
1617.04,0
1619.45,0.0985263
1621.86,0.072457
1624.27,0.055885
1626.68,0.0743238
1629.09,0.0815723
1631.5,0.113287
1633.91,0
1636.32,0
1638.73,0.104334
1641.15,0.12964
1643.56,0.144065
1645.97,0
1648.38,0.0795761
1650.79,0.0834609
1653.2,0
1655.61,0.101648
1658.02,0.160912
1660.43,0.167991
1662.84,0.0900648
1665.25,0.196121
1667.66,0.138821
1670.07,0.0740001
1672.48,0.198503
1674.89,0.081136
1677.3,0.224307
1679.71,0.232221
1682.13,0.211882
1684.54,0
1686.95,0.259123
1689.36,0.277142
1691.77,0.335353
1694.18,0.259095
1696.59,0.152837
1699,0.2404429
1701.41,0.279509
1703.82,0.550327
1706.23,0.583081
1708.64,0.700294
1711.05,0.717639
1713.46,0.657853
1715.87,0.496083
1718.28,0.354848
1720.7,0.546332
1723.11,0.492861
1725.52,0.47495
1727.93,0.431969
1730.34,0.379269
1732.75,0.178921
1735.16,0.13643
1737.57,0.321194
1739.98,0.197586
1742.39,0.240647
1744.8,0.207506
1747.21,0.146913
1749.62,0.08119602
1752.03,0
1754.44,0.0997091
1756.85,0
1759.27,0.0719116
1761.68,0
1764.09,0.0539145
1766.5,0
1768.91,0
1771.32,0
1773.73,0
1776.14,0
1778.55,0
1780.96,0
1783.37,0
1785.78,0
1788.19,0
1790.6,0
1793.01,0
1795.42,0
1797.83,0
1800.25,0
1802.66,0
1805.07,0
1807.48,0
1809.89,0
1812.3,0
1814.71,0
1817.12,0
1819.53,0
1821.94,0
1824.35,0
1826.76,0
1829.17,0
1831.58,0
1833.99,0
1836.4,0
1838.82,0
1841.23,0
1843.64,0
1846.05,0
1848.46,0
1850.87,0
1853.28,0
1855.69,0
1858.1,0
1860.51,0
1862.92,0
1865.33,0
1867.74,0
1870.15,0
1872.56,0
1874.97,0
1877.39,0
1879.8,0
1882.21,0
1884.62,0
1887.03,0
1889.44,0
1891.85,0
1894.26,0
1896.67,0
1899.08,0
1901.49,0
1903.9,0
1906.31,0
1908.72,0
1911.13,0
1913.54,0
1915.95,0
1918.37,0
1920.78,0
1923.19,0
1925.6,0
1928.01,0
1930.42,0
1932.83,0
1935.24,0
1937.65,0
1940.06,0
1942.47,0
1944.88,0
1947.29,0
1949.7,0
1952.11,0
1954.52,0
1956.94,0
1959.35,0
1961.76,0
1964.17,0
1966.58,0
1968.99,0
1971.4,0
1973.81,0
1976.22,0
1978.63,0.0507418
1981.04,0
1983.45,0
1985.86,0
1988.27,0
1990.68,0
1993.09,0
1995.51,0
1997.92,0
2000.33,0
2002.74,0
2005.15,0
2007.56,0
2009.97,0
2012.38,0
2014.79,0
2017.2,0
2019.61,0
2022.02,0
2024.43,0
2026.84,0
2029.25,0
2031.66,0.0479885
2034.07,0
2036.49,0.0481859
2038.9,0
2041.31,0
2043.72,0
2046.13,0
2048.54,0
2050.95,0
2053.36,0
2055.77,0
2058.18,0
2060.59,0
2063,0
2065.41,0
2067.82,0
2070.23,0
2072.64,0
2075.06,0
2077.47,0
2079.88,0
2082.29,0
2084.7,0
2087.11,0
2089.52,0
2091.93,0
2094.34,0
2096.75,0
2099.16,0
2101.57,0
2103.98,0
2106.39,0
2108.8,0
2111.21,0
2113.63,0
2116.04,0
2118.45,0
2120.86,0
2123.27,0
2125.68,0
2128.09,0
2130.5,0
2132.91,0
2135.32,0
2137.73,0
2140.14,0
2142.55,0
2144.96,0
2147.37,0
2149.78,0
2152.19,0
2154.61,0
2157.02,0
2159.43,0
2161.84,0
2164.25,0
2166.66,0
2169.07,0
2171.48,0
2173.89,0
2176.3,0
2178.71,0
2181.12,0
2183.53,0
2185.94,0
2188.35,0
2190.76,0
2193.18,0
2195.59,0
2198,0
2200.41,0
2202.82,0
2205.23,0
2207.64,0
2210.05,0
2212.46,0
2214.87,0
2217.28,0
2219.69,0
2222.1,0
2224.51,0
2226.92,0
2229.33,0
2231.75,0
2234.16,0
2236.57,0
2238.98,0
2241.39,0
2243.8,0
2246.21,0
2248.62,0
2251.03,0
2253.44,0
2255.85,0
2258.26,0
2260.67,0
2263.08,0
2265.49,0
2267.9,0
2270.31,0
2272.73,0
2275.14,0
2277.55,0
2279.96,0
2282.37,0
2284.78,0
2287.19,0
2289.6,0
2292.01,0
2294.42,0
2296.83,0
2299.24,0
2301.65,0
2304.06,0
2306.47,0
2308.88,0
2311.3,0
2313.71,0
2316.12,0
2318.53,0
2320.94,0
2323.35,0
2325.76,0
2328.17,0
2330.58,0
2332.99,0
2335.4,0
2337.81,0
2340.22,0
2342.63,0
2345.04,0
2347.45,0
2349.87,0
2352.28,0
2354.69,0
2357.1,0
2359.51,0
2361.92,0
2364.33,0
2366.74,0
2369.15,0
2371.56,0
2373.97,0
2376.38,0
2378.79,0
2381.2,0
2383.61,0
2386.02,0
2388.43,0
2390.85,0
2393.26,0
2395.67,0
2398.08,0
2400.49,0
2402.9,0
2405.31,0
2407.72,0
2410.13,0
2412.54,0
2414.95,0
2417.36,0
2419.77,0
2422.18,0
2424.59,0
2427,0
2429.42,0
2431.83,0
2434.24,0
2436.65,0
2439.06,0
2441.47,0
2443.88,0
2446.29,0
2448.7,0
2451.11,0
2453.52,0
2455.93,0
2458.34,0
2460.75,0
2463.16,0
2465.57,0
2467.99,0
2470.4,0
2472.81,0
2475.22,0
2477.63,0
2480.04,0
2482.45,0
2484.86,0
2487.27,0
2489.68,0
2492.09,0
2494.5,0
2496.91,0
2499.32,0
2501.73,0
2504.14,0
2506.55,0
2508.97,0
2511.38,0
2513.79,0
2516.2,0
2518.61,0
2521.02,0
2523.43,0
2525.84,0
2528.25,0
2530.66,0
2533.07,0
2535.48,0
2537.89,0
2540.3,0
2542.71,0
2545.12,0
2547.54,0
2549.95,0
2552.36,0
2554.77,0
2557.18,0
2559.59,0
2562,0
2564.41,0
2566.82,0
2569.23,0
2571.64,0
2574.05,0
2576.46,0
2578.87,0
2581.28,0
2583.69,0
2586.11,0
2588.52,0
2590.93,0
2593.34,0
2595.75,0
2598.16,0
2600.57,0
2602.98,0
2605.39,0
2607.8,0
2610.21,0
2612.62,0
2615.03,0
2617.44,0
2619.85,0
2622.26,0
2624.67,0
2627.09,0
2629.5,0
2631.91,0
2634.32,0
2636.73,0
2639.14,0
2641.55,0
2643.96,0
2646.37,0
2648.78,0
2651.19,0
2653.6,0
2656.01,0
2658.42,0
2660.83,0
2663.24,0
2665.66,0
2668.07,0
2670.48,0
2672.89,0
2675.3,0
2677.71,0
2680.12,0
2682.53,0
2684.94,0
2687.35,0
2689.76,0
2692.17,0
2694.58,0
2696.99,0
2699.4,0
2701.81,0
2704.23,0
2706.64,0
2709.05,0
2711.457,0
2713.87,0
2716.28,0
2718.69,0
2721.1,0
2723.51,0
2725.92,0
2728.33,0
2730.74,0
2733.15,0
2735.56,0
2737.97,0
2740.38,0
2742.79,0
2745.21,0
2747.62,0
2750.03,0
2752.44,0
2754.85,0
2757.26,0
2759.67,0
2762.08,0
2764.49,0
2766.9,0
2769.31,0
2771.72,0
2774.13,0
2776.54,0
2778.95,0
2781.36,0
2783.78,0
2786.19,0
2788.6,0
2791.01,0
2793.42,0
2795.83,0
2798.24,0
2800.65,0
2803.06,0.0487113
2805.47,0.0520353
2807.88,0.0526287
2810.29,0.0510028
2812.7,0.0541889
2815.11,0.0587524
2817.52,0.0643482
2819.93,0.06599987
2822.35,0.0681451
2824.76,0.0740654
2827.17,0.0742021
2829.58,0.08480097
2831.99,0.0905558
2834.4,0.114117
2836.81,0.139186
2839.22,0.178017
2841.63,0.227123
2844.04,0.312723
2846.45,0.434643
2848.86,0.565489
2851.27,0.642288
2853.68,0.619604
2856.09,0.541031
2858.5,0.454947
2860.91,0.366126
2863.33,0.31585
2865.74,0.2733
2868.15,0.254901
2870.56,0.253094
2872.97,0.245246
2875.38,0.232198
2877.79,0.219862
2880.2,0.215588
2882.61,0.220915
2885.02,0.237106
2887.43,0.253909
2889.84,0.281884
2892.25,0.301585
2894.66,0.333158
2897.07,0.354021
2899.48,0.387643
2901.9,0.425214
2904.31,0.462213
2906.72,0.50585
2909.13,0.565569
2911.54,0.637956
2913.95,0.742294
2916.36,0.857378
2918.77,0.943915
2921.18,0.998822
2923.59,0.986021
2926,0.915285
2928.41,0.830789
2930.82,0.744041
2933.23,0.642942
2935.64,0.558533
2938.05,0.476505
2940.47,0.408479
2942.88,0.364834
2945.29,0.331717
2947.7,0.315391
2950.11,0.316595
2952.52,0.321345
2954.93,0.32444
2957.34,0.315368
2959.75,0.298388
2962.16,0.266254
2964.57,0.239906
2966.98,0.212421
2969.39,0.17528
2971.8,0.144711
2974.21,0.110061
2976.62,0.0932799
2979.03,0.07382054
2981.45,0.0785411
2983.86,0.0633171
2986.27,0.0601953
2988.68,0.0527095
2991.09,0
2993.5,0
2995.91,0
2998.32,0
3000.73,0
3003.14,0.0481923
3005.55,0
3007.96,0
3010.37,0
3012.78,0
3015.19,0
3017.6,0
3020.02,0
3022.43,0
3024.84,0
3027.25,0
3029.66,0
3032.07,0
3034.48,0
3036.89,0
3039.3,0
3041.71,0
3044.12,0
3046.53,0
3048.94,0
3051.35,0
3053.76,0
3056.17,0
3058.59,0
3061,0
3063.41,0
3065.82,0
3068.23,0
3070.64,0
3073.05,0
3075.46,0
3077.87,0
3080.28,0
3082.69,0
3085.1,0
3087.51,0
3089.92,0
3092.33,0
3094.74,0
3097.16,0
3099.57,0
3101.98,0
3104.39,0
3106.8,0
3109.21,0
3111.62,0
3114.03,0
3116.44,0
3118.85,0
3121.26,0
3123.67,0
3126.08,0
3128.49,0
3130.9,0
3133.31,0
3135.72,0
3138.14,0
3140.55,0
3142.96,0
3145.37,0
3147.78,0
3150.19,0
3152.6,0
3155.01,0
3157.42,0
3159.83,0
3162.24,0
3164.65,0
3167.06,0
3169.47,0
3171.88,0
3174.29,0
3176.71,0
3179.12,0
3181.53,0
3183.94,0
3186.35,0
3188.76,0
3191.17,0
3193.58,0
3195.99,0
3198.4,0
3200.81,0
3203.22,0
3205.63,0
3208.04,0
3210.45,0
3212.86,0
3215.28,0
3217.69,0
3220.1,0
3222.51,0
3224.92,0
3227.33,0
3229.74,0
3232.15,0
3234.56,0
3236.97,0
3239.38,0
3241.79,0
3244.2,0
3246.61,0
3249.02,0
3251.43,0
3253.84,0
3256.26,0
3258.67,0
3261.08,0
3263.49,0
3265.9,0
3268.31,0
3270.72,0
3273.13,0
3275.54,0
3277.95,0
3280.36,0
3282.77,0
3285.18,0
3287.59,0
3290,0
3292.41,0
3294.83,0
3297.24,0
3299.65,0
3302.06,0
3304.47,0
3306.88,0
3309.29,0
3311.7,0
3314.11,0
3316.52,0
3318.93,0
3321.34,0
3323.75,0
3326.16,0
3328.57,0
3330.98,0
3333.4,0
3335.81,0
3338.22,0
3340.63,0
3343.04,0
3345.45,0
3347.86,0
3350.27,0
3352.68,0
3355.09,0
3357.5,0
3359.91,0
3362.32,0
3364.73,0
3367.14,0
3369.55,0
3371.96,0
3374.38,0
3376.79,0
3379.2,0
3381.61,0
3384.02,0
3386.43,0
3388.84,0
3391.25,0
3393.66,0
3396.07,0
3398.48,0
3400.89,0
3403.3,0
3405.71,0
3408.12,0
3410.53,0
3412.95,0
3415.36,0
3417.77,0
3420.18,0
3422.59,0
3425,0
3427.41,0
3429.82,0
3432.23,0
3434.64,0
3437.05,0
3439.46,0
3441.87,0
3444.28,0
3446.69,0
3449.1,0
3451.52,0
3453.93,0
3456.34,0
3458.75,0
3461.16,0
3463.57,0
3465.98,0
3468.39,0.0498549
3470.8,0
3473.21,0
3475.62,0
3478.03,0.0496325
3480.44,0
3482.85,0
3485.26,0
3487.67,0
3490.08,0
3492.5,0
3494.91,0
3497.32,0
3499.73,0.0496335
3502.14,0
3504.55,0
3506.96,0
3509.37,0
3511.78,0
3514.19,0.0516297
3516.6,0.0514782
3519.01,0
3521.42,0
3523.83,0
3526.24,0
3528.65,0
3531.07,0.0494588
3533.48,0.0498728
3535.89,0
3538.3,0.052836
3540.71,0.05691439
3543.12,0
3545.53,0
3547.94,0
3550.35,0.0524431
3552.76,0
3555.17,0.0615564
3557.58,0.06123901
3559.99,0.0507366
3562.4,0.0539601
3564.81,0
3567.22,0
3569.64,0
3572.05,0.0667399
3574.46,0.0652862
3576.87,0.0650317
3579.28,0.0606054
3581.69,0.0732932
3584.1,0.0614757
3586.51,0
3588.92,0
3591.33,0.080143
3593.74,0.0520163
3596.15,0.06066
3598.56,0.0679062
3600.97,0.0603458
3603.38,0.0842314
3605.79,0.0608989
3608.2,0
3610.62,0
3613.03,0
3615.44,0.0663728
3617.85,0
3620.26,0
3622.67,0.140432
3625.08,0.130116
3627.49,0
3629.9,0
3632.31,0.135365
3634.72,0.0763501
3637.13,0.144449
3639.54,0.153665
3641.95,0.141109
3644.36,0.160221
3646.77,0
3649.19,0
3651.6,0
3654.01,0.159006
3656.42,0
3658.83,0.195832
3661.24,0.174373
3663.65,0.177448
3666.06,0.190267
3668.47,0
3670.88,0
3673.29,0.120993
3675.7,0
3678.11,0.138176
3680.52,0.13293
3682.93,0.178382
3685.34,0.206523
3687.76,0
3690.17,0
3692.58,0.140083
3694.99,0.193819
3697.4,0.198254
3699.81,0.175068
3702.22,0.0756858
3704.63,0.209776
3707.04,0.194519
3709.45,0.0544505
3711.86,0
3714.27,0.178001
3716.68,0.219909
3719.09,0.165668
3721.5,0.164457
3723.91,0.156178
3726.32,0.121185
3728.74,0.224108
3731.15,0.0482921
3733.56,0
3735.97,0
3738.38,0.14458
3740.79,0.183661
3743.2,0
3745.61,0
3748.02,0
3750.43,0
3752.84,0
3755.25,0.222303
3757.66,0.17629
3760.07,0.143452
3762.48,0.269738
3764.89,0.162157
3767.31,0.223928
3769.72,0.07887265
3772.13,0.2557148
3774.54,0.279581
3776.95,0.266034
3779.36,0.175349
3781.77,0.273344
3784.18,0.233159
3786.59,0.269758
3789,0.275262
3791.41,0.281388
3793.82,0.280934
3796.23,0.172993
3798.64,0.269765
3801.05,0
3803.46,0.206588
3805.88,0.0612172
3808.29,0.141042
3810.7,0.287751
3813.11,0.314366
3815.52,0
3817.93,0.201536
3820.34,0
3822.75,0.122239
3825.16,0.268732
3827.57,0.242363
3829.98,0.245976
3832.39,0.186896
3834.8,0.172011
3837.21,0
3839.62,0.0792185
3842.03,0.189867
3844.44,0.183858
3846.86,0.273097
3849.27,0.268574
3851.68,0
3854.09,0
3856.5,0.215986
3858.91,0.259563
3861.32,0.16614
3863.73,0.123683
3866.14,0.156536
3868.55,0
3870.96,0
3873.37,0.168372
3875.78,0.209905
3878.19,0.228047
3880.6,0.0703606
3883.01,0.238934
3885.43,0
3887.84,0.238875
3890.25,0.0809857
3892.66,0.152633
3895.07,0.223798
3897.48,0.160481
3899.89,0.0513482
3902.3,0
3904.71,0
3907.12,0.207279
3909.53,0.20703
3911.94,0.20466
3914.35,0.211093
3916.76,0.109547
3919.17,0.154991
3921.58,0.155339
3924,0.152929
3926.41,0.144327
3928.82,0.140972
3931.23,0.129075
3933.64,0.146261
3936.05,0.140413
3938.46,0.139261
3940.87,0.139725
3943.28,0.0626547
3945.69,0.13325
3948.1,0.0689067
3950.51,0.0713362
3952.92,0.0741717
3955.33,0.0642143
3957.74,0.0673707
3960.15,0.0541953
3962.56,0.0585919
3964.98,0.0617632
3967.39,0.0481417
3969.8,0
3972.21,0
3974.62,0
3977.03,0
3979.44,0
3981.85,0
3984.26,0
3986.67,0
3989.08,0
3991.49,0
3993.9,0
3996.31,0
3998.72,0
4000.17,0